Date	Time	Acc x	Acc y	Acc z
30/04/2024	19:57:12.551894	-0.006789	0.014117	1.003289
30/04/2024	19:57:12.559871	-0.006758	0.014184	1.003078
30/04/2024	19:57:12.567848	-0.006852	0.014113	1.003477
30/04/2024	19:57:12.575825	-0.007012	0.014156	1.003156
30/04/2024	19:57:12.583802	-0.007176	0.013934	1.003094
30/04/2024	19:57:12.591779	-0.007184	0.014020	1.003340
30/04/2024	19:57:12.599756	-0.007051	0.014016	1.003187
30/04/2024	19:57:12.607733	-0.006961	0.014094	1.003516
30/04/2024	19:57:12.615710	-0.006910	0.014027	1.003430
30/04/2024	19:57:12.623687	-0.006676	0.014285	1.003523
30/04/2024	19:57:12.631664	-0.006762	0.014070	1.003410
30/04/2024	19:57:12.639641	-0.006930	0.013953	1.003488
30/04/2024	19:57:12.647618	-0.007133	0.013832	1.003414
30/04/2024	19:57:12.655595	-0.007016	0.013992	1.003281
30/04/2024	19:57:12.663572	-0.007063	0.014020	1.003176
30/04/2024	19:57:12.671549	-0.006723	0.014043	1.003648
30/04/2024	19:57:12.679526	-0.006836	0.014160	1.003750
30/04/2024	19:57:12.687503	-0.006801	0.014367	1.003484
30/04/2024	19:57:12.695480	-0.007047	0.014094	1.003543
30/04/2024	19:57:12.703457	-0.007070	0.014004	1.003391
30/04/2024	19:57:12.711434	-0.007020	0.013961	1.002906
30/04/2024	19:57:12.719411	-0.006883	0.013914	1.003301
30/04/2024	19:57:12.727388	-0.006742	0.013961	1.003602
30/04/2024	19:57:12.735365	-0.006754	0.014266	1.003844
30/04/2024	19:57:12.743342	-0.006902	0.014176	1.003676
30/04/2024	19:57:12.751319	-0.006938	0.014074	1.003293
30/04/2024	19:57:12.759296	-0.007020	0.014195	1.002672
30/04/2024	19:57:12.767273	-0.007082	0.014008	1.003035
30/04/2024	19:57:12.775250	-0.006848	0.014086	1.003250
30/04/2024	19:57:12.783227	-0.006836	0.014078	1.003602
30/04/2024	19:57:12.791204	-0.006773	0.014301	1.003535
30/04/2024	19:57:12.799181	-0.006887	0.014242	1.003176
30/04/2024	19:57:12.807158	-0.007000	0.014281	1.002680
30/04/2024	19:57:12.815135	-0.006988	0.014285	1.002902
30/04/2024	19:57:12.823112	-0.006793	0.014301	1.003137
30/04/2024	19:57:12.831089	-0.006602	0.014418	1.003523
30/04/2024	19:57:12.839066	-0.006523	0.014207	1.003523
30/04/2024	19:57:12.847043	-0.006773	0.014297	1.003832
30/04/2024	19:57:12.855020	-0.006926	0.014293	1.002988
30/04/2024	19:57:12.862997	-0.007008	0.014250	1.003043
30/04/2024	19:57:12.870974	-0.006934	0.014207	1.003250
30/04/2024	19:57:12.878951	-0.006812	0.014313	1.003582
30/04/2024	19:57:12.886928	-0.006504	0.014395	1.003324
30/04/2024	19:57:12.894905	-0.006687	0.014117	1.003578
30/04/2024	19:57:12.902882	-0.006809	0.014098	1.002941
30/04/2024	19:57:12.910859	-0.007199	0.014086	1.003520
30/04/2024	19:57:12.918836	-0.007039	0.013867	1.003066
30/04/2024	19:57:12.926813	-0.007027	0.013984	1.003707
30/04/2024	19:57:12.934790	-0.007023	0.013945	1.003723
30/04/2024	19:57:12.942767	-0.006812	0.014051	1.003809
30/04/2024	19:57:12.950744	-0.006668	0.014066	1.003352
30/04/2024	19:57:12.958721	-0.006801	0.014012	1.003473
30/04/2024	19:57:12.966698	-0.006828	0.013926	1.003086
30/04/2024	19:57:12.974675	-0.007102	0.013770	1.003586
30/04/2024	19:57:12.982652	-0.007078	0.013883	1.003270
30/04/2024	19:57:12.990629	-0.006980	0.013828	1.003699
30/04/2024	19:57:12.998606	-0.006707	0.014066	1.003258
30/04/2024	19:57:13.006583	-0.006871	0.014109	1.003660
30/04/2024	19:57:13.014560	-0.006844	0.014121	1.003426
30/04/2024	19:57:13.022537	-0.006973	0.014082	1.003496
30/04/2024	19:57:13.030514	-0.006816	0.014055	1.003336
30/04/2024	19:57:13.038491	-0.006730	0.013941	1.003867
30/04/2024	19:57:13.046468	-0.006902	0.013910	1.003359
30/04/2024	19:57:13.054445	-0.007070	0.013891	1.003645
30/04/2024	19:57:13.062422	-0.006859	0.014086	1.003449
30/04/2024	19:57:13.070399	-0.006758	0.014113	1.003812
30/04/2024	19:57:13.078376	-0.006781	0.014207	1.003332
30/04/2024	19:57:13.086353	-0.006941	0.014121	1.003797
30/04/2024	19:57:13.094330	-0.006832	0.014063	1.003227
30/04/2024	19:57:13.102307	-0.007004	0.014113	1.003246
30/04/2024	19:57:13.110284	-0.006879	0.014117	1.003340
30/04/2024	19:57:13.118261	-0.006879	0.014012	1.003406
30/04/2024	19:57:13.126238	-0.006660	0.014383	1.003234
30/04/2024	19:57:13.134215	-0.006766	0.014543	1.003520
30/04/2024	19:57:13.142192	-0.006730	0.014508	1.003223
30/04/2024	19:57:13.150169	-0.006965	0.014402	1.003320
30/04/2024	19:57:13.158146	-0.006781	0.014352	1.002867
30/04/2024	19:57:13.166123	-0.006687	0.014281	1.003254
30/04/2024	19:57:13.174100	-0.006789	0.014254	1.003004
30/04/2024	19:57:13.182077	-0.006945	0.014285	1.003793
30/04/2024	19:57:13.190054	-0.006762	0.014402	1.003184
30/04/2024	19:57:13.198031	-0.006816	0.014281	1.003570
30/04/2024	19:57:13.206008	-0.006758	0.014336	1.003426
30/04/2024	19:57:13.213985	-0.007082	0.014203	1.003207
30/04/2024	19:57:13.221962	-0.006801	0.014148	1.003473
30/04/2024	19:57:13.229939	-0.006770	0.014059	1.003531
30/04/2024	19:57:13.237916	-0.006840	0.013984	1.003504
30/04/2024	19:57:13.245893	-0.006910	0.014164	1.003574
30/04/2024	19:57:13.253870	-0.006898	0.014152	1.003812
30/04/2024	19:57:13.261847	-0.006957	0.014047	1.003723
30/04/2024	19:57:13.269824	-0.007016	0.014137	1.003387
30/04/2024	19:57:13.277801	-0.006777	0.014129	1.003973
30/04/2024	19:57:13.285778	-0.006598	0.014008	1.003695
30/04/2024	19:57:13.293755	-0.006832	0.013891	1.003453
30/04/2024	19:57:13.301732	-0.006938	0.014168	1.003520
30/04/2024	19:57:13.309709	-0.006910	0.014008	1.003418
30/04/2024	19:57:13.317686	-0.007086	0.013984	1.003320
30/04/2024	19:57:13.325663	-0.007016	0.014102	1.003723
30/04/2024	19:57:13.333640	-0.006816	0.014133	1.003492
30/04/2024	19:57:13.341617	-0.006793	0.014031	1.003375
30/04/2024	19:57:13.349594	-0.006801	0.013918	1.003559
30/04/2024	19:57:13.357571	-0.007074	0.013832	1.003574
30/04/2024	19:57:13.365548	-0.006988	0.014078	1.003629
30/04/2024	19:57:13.373525	-0.007000	0.014039	1.003496
30/04/2024	19:57:13.381502	-0.006891	0.014031	1.003688
30/04/2024	19:57:13.389479	-0.006797	0.014250	1.003434
30/04/2024	19:57:13.397456	-0.006820	0.014324	1.003348
30/04/2024	19:57:13.405433	-0.007234	0.014234	1.003453
30/04/2024	19:57:13.413410	-0.006965	0.014215	1.003602
30/04/2024	19:57:13.421387	-0.007082	0.014277	1.003156
30/04/2024	19:57:13.429364	-0.007086	0.014230	1.003738
30/04/2024	19:57:13.437341	-0.006984	0.014109	1.003680
30/04/2024	19:57:13.445318	-0.006992	0.014324	1.003676
30/04/2024	19:57:13.453295	-0.006852	0.014281	1.003215
30/04/2024	19:57:13.461272	-0.006730	0.014207	1.003242
30/04/2024	19:57:13.469249	-0.006883	0.014195	1.003504
30/04/2024	19:57:13.477226	-0.006949	0.014313	1.003879
30/04/2024	19:57:13.485203	-0.007000	0.014246	1.003387
30/04/2024	19:57:13.493180	-0.006996	0.014203	1.003633
30/04/2024	19:57:13.501157	-0.006840	0.014316	1.003270
30/04/2024	19:57:13.509134	-0.006742	0.014227	1.003062
30/04/2024	19:57:13.517111	-0.006785	0.014113	1.003262
30/04/2024	19:57:13.525088	-0.006848	0.014180	1.003824
30/04/2024	19:57:13.533065	-0.006898	0.014336	1.003113
30/04/2024	19:57:13.541042	-0.006828	0.014266	1.003465
30/04/2024	19:57:13.549027	-0.007145	0.014023	1.003195
30/04/2024	19:57:13.557004	-0.006906	0.014027	1.003469
30/04/2024	19:57:13.564981	-0.006766	0.014086	1.003078
30/04/2024	19:57:13.572958	-0.006754	0.014117	1.003660
30/04/2024	19:57:13.580935	-0.006609	0.014293	1.003812
30/04/2024	19:57:13.588912	-0.006742	0.014238	1.004117
30/04/2024	19:57:13.596889	-0.006801	0.014121	1.003566
30/04/2024	19:57:13.604866	-0.007031	0.013867	1.003574
30/04/2024	19:57:13.612843	-0.007023	0.013836	1.003246
30/04/2024	19:57:13.620820	-0.006996	0.013836	1.003621
30/04/2024	19:57:13.628797	-0.006719	0.013926	1.003207
30/04/2024	19:57:13.636774	-0.006789	0.013949	1.003664
30/04/2024	19:57:13.644751	-0.006844	0.014102	1.003961
30/04/2024	19:57:13.652728	-0.006852	0.014152	1.003762
30/04/2024	19:57:13.660705	-0.006957	0.013949	1.003301
30/04/2024	19:57:13.668682	-0.007117	0.013789	1.003562
30/04/2024	19:57:13.676659	-0.006945	0.013941	1.003227
30/04/2024	19:57:13.684636	-0.006953	0.013828	1.003625
30/04/2024	19:57:13.692613	-0.006895	0.013855	1.003352
30/04/2024	19:57:13.700590	-0.006988	0.013840	1.003398
30/04/2024	19:57:13.708567	-0.006957	0.013926	1.002996
30/04/2024	19:57:13.716544	-0.006918	0.014082	1.003547
30/04/2024	19:57:13.724521	-0.006891	0.014324	1.003246
30/04/2024	19:57:13.732498	-0.006848	0.014254	1.003758
30/04/2024	19:57:13.740475	-0.006758	0.014109	1.003371
30/04/2024	19:57:13.748452	-0.006895	0.014125	1.003371
30/04/2024	19:57:13.756429	-0.006730	0.014184	1.002742
30/04/2024	19:57:13.764406	-0.006973	0.014305	1.003230
30/04/2024	19:57:13.772383	-0.006980	0.014238	1.003273
30/04/2024	19:57:13.780360	-0.007137	0.014465	1.003781
30/04/2024	19:57:13.788337	-0.006879	0.014512	1.003625
30/04/2024	19:57:13.796314	-0.006852	0.014336	1.003473
30/04/2024	19:57:13.804291	-0.006812	0.014023	1.003160
30/04/2024	19:57:13.812268	-0.006832	0.014102	1.003242
30/04/2024	19:57:13.820245	-0.006895	0.014125	1.003043
30/04/2024	19:57:13.828222	-0.006895	0.014191	1.003414
30/04/2024	19:57:13.836199	-0.006949	0.014434	1.003598
30/04/2024	19:57:13.844176	-0.007117	0.014219	1.003562
30/04/2024	19:57:13.852153	-0.006852	0.014113	1.003234
30/04/2024	19:57:13.860130	-0.007051	0.014059	1.003160
30/04/2024	19:57:13.868107	-0.007027	0.014086	1.003402
30/04/2024	19:57:13.876084	-0.006781	0.014055	1.003648
30/04/2024	19:57:13.884061	-0.006824	0.014109	1.003719
30/04/2024	19:57:13.892038	-0.006953	0.014160	1.003430
30/04/2024	19:57:13.900015	-0.006930	0.014172	1.003473
30/04/2024	19:57:13.907992	-0.006930	0.014359	1.003320
30/04/2024	19:57:13.915969	-0.006867	0.014086	1.003270
30/04/2024	19:57:13.923946	-0.006902	0.014160	1.003352
30/04/2024	19:57:13.931923	-0.006648	0.014172	1.003641
30/04/2024	19:57:13.939900	-0.006816	0.014133	1.003621
30/04/2024	19:57:13.947877	-0.007035	0.014137	1.003488
30/04/2024	19:57:13.955854	-0.007160	0.014176	1.003305
30/04/2024	19:57:13.963831	-0.006867	0.014172	1.003543
30/04/2024	19:57:13.971808	-0.006988	0.014133	1.003344
30/04/2024	19:57:13.979785	-0.006902	0.014172	1.003449
30/04/2024	19:57:13.987762	-0.006742	0.014180	1.003570
30/04/2024	19:57:13.995739	-0.006934	0.014176	1.003469
30/04/2024	19:57:14.003716	-0.007027	0.013887	1.003242
30/04/2024	19:57:14.011693	-0.006949	0.013848	1.003406
30/04/2024	19:57:14.019670	-0.006797	0.014102	1.003180
30/04/2024	19:57:14.027647	-0.006855	0.014008	1.003594
30/04/2024	19:57:14.035624	-0.006789	0.014238	1.003715
30/04/2024	19:57:14.043601	-0.006977	0.014055	1.003504
30/04/2024	19:57:14.051578	-0.006898	0.014102	1.003129
30/04/2024	19:57:14.059555	-0.006867	0.014297	1.003453
30/04/2024	19:57:14.067532	-0.006926	0.014297	1.003313
30/04/2024	19:57:14.075509	-0.006844	0.014051	1.003316
30/04/2024	19:57:14.083486	-0.006941	0.013934	1.003145
30/04/2024	19:57:14.091463	-0.006945	0.014238	1.003445
30/04/2024	19:57:14.099440	-0.006687	0.014188	1.003227
30/04/2024	19:57:14.107417	-0.006578	0.014133	1.003645
30/04/2024	19:57:14.115394	-0.006730	0.014305	1.003336
30/04/2024	19:57:14.123371	-0.007000	0.014188	1.003668
30/04/2024	19:57:14.131348	-0.006848	0.014188	1.003437
30/04/2024	19:57:14.139325	-0.006824	0.014152	1.003355
30/04/2024	19:57:14.147302	-0.006770	0.014102	1.002973
30/04/2024	19:57:14.155279	-0.006910	0.014121	1.003367
30/04/2024	19:57:14.163256	-0.006793	0.014352	1.003219
30/04/2024	19:57:14.171233	-0.007133	0.014234	1.003781
30/04/2024	19:57:14.179210	-0.007063	0.014379	1.003598
30/04/2024	19:57:14.187187	-0.006930	0.014305	1.003371
30/04/2024	19:57:14.195164	-0.007047	0.014102	1.003199
30/04/2024	19:57:14.203141	-0.006957	0.014184	1.003641
30/04/2024	19:57:14.211118	-0.006938	0.014234	1.002926
30/04/2024	19:57:14.219095	-0.006977	0.014047	1.003434
30/04/2024	19:57:14.227072	-0.006762	0.014125	1.003742
30/04/2024	19:57:14.235049	-0.006922	0.013965	1.003820
30/04/2024	19:57:14.243026	-0.006961	0.013918	1.002938
30/04/2024	19:57:14.251003	-0.006891	0.013828	1.003484
30/04/2024	19:57:14.258980	-0.007070	0.013949	1.003316
30/04/2024	19:57:14.266957	-0.006953	0.014031	1.003652
30/04/2024	19:57:14.274934	-0.006840	0.013945	1.003082
30/04/2024	19:57:14.282911	-0.006965	0.014004	1.003957
30/04/2024	19:57:14.290888	-0.006988	0.014117	1.003676
30/04/2024	19:57:14.298865	-0.006875	0.014109	1.003711
30/04/2024	19:57:14.306842	-0.006863	0.014008	1.003098
30/04/2024	19:57:14.314819	-0.006809	0.014070	1.003445
30/04/2024	19:57:14.322796	-0.006820	0.014051	1.003148
30/04/2024	19:57:14.330773	-0.006875	0.014055	1.003891
30/04/2024	19:57:14.338750	-0.007023	0.014137	1.003133
30/04/2024	19:57:14.346727	-0.006832	0.014266	1.003633
30/04/2024	19:57:14.354704	-0.006867	0.014199	1.003340
30/04/2024	19:57:14.362681	-0.006762	0.014176	1.003227
30/04/2024	19:57:14.370658	-0.006609	0.014129	1.003430
30/04/2024	19:57:14.378635	-0.006848	0.014160	1.003605
30/04/2024	19:57:14.386612	-0.006816	0.014148	1.003414
30/04/2024	19:57:14.394589	-0.006711	0.014133	1.003891
30/04/2024	19:57:14.402566	-0.006859	0.014266	1.003395
30/04/2024	19:57:14.410543	-0.006809	0.014195	1.003434
30/04/2024	19:57:14.418520	-0.006898	0.014242	1.003258
30/04/2024	19:57:14.426497	-0.006926	0.014203	1.003344
30/04/2024	19:57:14.434474	-0.006781	0.014266	1.003219
30/04/2024	19:57:14.442451	-0.006687	0.014215	1.003277
30/04/2024	19:57:14.450428	-0.006891	0.014348	1.003266
30/04/2024	19:57:14.458405	-0.006961	0.014148	1.003266
30/04/2024	19:57:14.466382	-0.007047	0.014215	1.003523
30/04/2024	19:57:14.474359	-0.006953	0.013957	1.003391
30/04/2024	19:57:14.482336	-0.006898	0.014145	1.003066
30/04/2024	19:57:14.490313	-0.006902	0.014152	1.003437
30/04/2024	19:57:14.498290	-0.006996	0.014352	1.003574
30/04/2024	19:57:14.506267	-0.006902	0.014109	1.003512
30/04/2024	19:57:14.514244	-0.006930	0.014160	1.003082
30/04/2024	19:57:14.522221	-0.006906	0.014000	1.003098
30/04/2024	19:57:14.530198	-0.006859	0.014105	1.003406
30/04/2024	19:57:14.538175	-0.006852	0.014152	1.003750
30/04/2024	19:57:14.546160	-0.006820	0.014023	1.003656
30/04/2024	19:57:14.554137	-0.006879	0.013969	1.003348
30/04/2024	19:57:14.562114	-0.006949	0.014063	1.003297
30/04/2024	19:57:14.570091	-0.007066	0.013965	1.003344
30/04/2024	19:57:14.578068	-0.006977	0.014109	1.003559
30/04/2024	19:57:14.586045	-0.007047	0.014117	1.003648
30/04/2024	19:57:14.594022	-0.006852	0.013965	1.003973
30/04/2024	19:57:14.601999	-0.006828	0.014047	1.003500
30/04/2024	19:57:14.609976	-0.007113	0.014012	1.003273
30/04/2024	19:57:14.617953	-0.007023	0.013945	1.003000
30/04/2024	19:57:14.625930	-0.006996	0.014000	1.003625
30/04/2024	19:57:14.633907	-0.006797	0.014117	1.003937
30/04/2024	19:57:14.641884	-0.006836	0.013953	1.004242
30/04/2024	19:57:14.649861	-0.006867	0.013859	1.003891
30/04/2024	19:57:14.657838	-0.006863	0.013836	1.003527
30/04/2024	19:57:14.665815	-0.006812	0.013836	1.002797
30/04/2024	19:57:14.673792	-0.006910	0.014027	1.003125
30/04/2024	19:57:14.681769	-0.006883	0.014125	1.003617
30/04/2024	19:57:14.689746	-0.006883	0.014305	1.004289
30/04/2024	19:57:14.697723	-0.006590	0.014180	1.003848
30/04/2024	19:57:14.705700	-0.006883	0.014258	1.003531
30/04/2024	19:57:14.713677	-0.007016	0.014145	1.002832
30/04/2024	19:57:14.721654	-0.007113	0.014043	1.003148
30/04/2024	19:57:14.729631	-0.006820	0.014160	1.003152
30/04/2024	19:57:14.737608	-0.006812	0.014137	1.004496
30/04/2024	19:57:14.745585	-0.006836	0.014277	1.003961
30/04/2024	19:57:14.753562	-0.007055	0.014313	1.003352
30/04/2024	19:57:14.761539	-0.007027	0.014207	1.002758
30/04/2024	19:57:14.769516	-0.007059	0.014184	1.002582
30/04/2024	19:57:14.777493	-0.006984	0.014293	1.003219
30/04/2024	19:57:14.785470	-0.006805	0.014273	1.004215
30/04/2024	19:57:14.793447	-0.006754	0.014395	1.003652
30/04/2024	19:57:14.801424	-0.007020	0.014184	1.003668
30/04/2024	19:57:14.809401	-0.006961	0.014090	1.002875
30/04/2024	19:57:14.817378	-0.006863	0.014012	1.002578
30/04/2024	19:57:14.825355	-0.006652	0.014281	1.002805
30/04/2024	19:57:14.833332	-0.006508	0.014383	1.003832
30/04/2024	19:57:14.841309	-0.006484	0.014422	1.003859
30/04/2024	19:57:14.849286	-0.006750	0.014246	1.004012
30/04/2024	19:57:14.857263	-0.006855	0.014168	1.003043
30/04/2024	19:57:14.865240	-0.007000	0.013930	1.002992
30/04/2024	19:57:14.873217	-0.006941	0.014000	1.002793
30/04/2024	19:57:14.881194	-0.006980	0.014000	1.004133
30/04/2024	19:57:14.889171	-0.006715	0.014246	1.003937
30/04/2024	19:57:14.897148	-0.006730	0.014219	1.003707
30/04/2024	19:57:14.905125	-0.006867	0.013828	1.002945
30/04/2024	19:57:14.913102	-0.007027	0.014113	1.003410
30/04/2024	19:57:14.921079	-0.007031	0.014109	1.003277
30/04/2024	19:57:14.929056	-0.007027	0.013914	1.004211
30/04/2024	19:57:14.937033	-0.006883	0.014012	1.003887
30/04/2024	19:57:14.945010	-0.007023	0.014105	1.003641
30/04/2024	19:57:14.952987	-0.006820	0.014121	1.003059
30/04/2024	19:57:14.960964	-0.006805	0.014004	1.002754
30/04/2024	19:57:14.968941	-0.006789	0.014008	1.002895
30/04/2024	19:57:14.976918	-0.006871	0.014301	1.004180
30/04/2024	19:57:14.984895	-0.006879	0.014055	1.004371
30/04/2024	19:57:14.992872	-0.007035	0.013973	1.004191
30/04/2024	19:57:15.000849	-0.007027	0.014023	1.002691
30/04/2024	19:57:15.008826	-0.006898	0.013855	1.002621
30/04/2024	19:57:15.016803	-0.006875	0.013969	1.002723
30/04/2024	19:57:15.024780	-0.006922	0.014293	1.004297
30/04/2024	19:57:15.032757	-0.006777	0.014469	1.004281
30/04/2024	19:57:15.040734	-0.007031	0.014371	1.003727
30/04/2024	19:57:15.048711	-0.007168	0.014008	1.003145
30/04/2024	19:57:15.056688	-0.007246	0.013961	1.002715
30/04/2024	19:57:15.064665	-0.006930	0.013969	1.002563
30/04/2024	19:57:15.072642	-0.006633	0.014031	1.003727
30/04/2024	19:57:15.080619	-0.006586	0.014375	1.004262
30/04/2024	19:57:15.088596	-0.006793	0.014500	1.004289
30/04/2024	19:57:15.096573	-0.006793	0.014301	1.003164
30/04/2024	19:57:15.104550	-0.007043	0.014098	1.002492
30/04/2024	19:57:15.112527	-0.006934	0.014047	1.002492
30/04/2024	19:57:15.120504	-0.006816	0.014023	1.003398
30/04/2024	19:57:15.128481	-0.006742	0.014133	1.004168
30/04/2024	19:57:15.136458	-0.006910	0.014344	1.004055
30/04/2024	19:57:15.144435	-0.006887	0.014309	1.003504
30/04/2024	19:57:15.152412	-0.007152	0.014320	1.002586
30/04/2024	19:57:15.160389	-0.007004	0.014191	1.002594
30/04/2024	19:57:15.168366	-0.006727	0.014152	1.003090
30/04/2024	19:57:15.176343	-0.006555	0.014180	1.003902
30/04/2024	19:57:15.184320	-0.006652	0.014117	1.004176
30/04/2024	19:57:15.192297	-0.006980	0.014113	1.003828
30/04/2024	19:57:15.200274	-0.007117	0.013918	1.002887
30/04/2024	19:57:15.208251	-0.007090	0.014031	1.002652
30/04/2024	19:57:15.216228	-0.006945	0.014191	1.003039
30/04/2024	19:57:15.224205	-0.006668	0.014195	1.004230
30/04/2024	19:57:15.232182	-0.006504	0.014285	1.004180
30/04/2024	19:57:15.240159	-0.006625	0.014203	1.003801
30/04/2024	19:57:15.248136	-0.007098	0.013828	1.003195
30/04/2024	19:57:15.256113	-0.007215	0.013801	1.002914
30/04/2024	19:57:15.264090	-0.006883	0.014172	1.003043
30/04/2024	19:57:15.272067	-0.006953	0.014176	1.003980
30/04/2024	19:57:15.280044	-0.007023	0.014313	1.004211
30/04/2024	19:57:15.288021	-0.006531	0.014266	1.004105
30/04/2024	19:57:15.295998	-0.006633	0.014094	1.003414
30/04/2024	19:57:15.303975	-0.006914	0.013848	1.003000
30/04/2024	19:57:15.311952	-0.006863	0.013840	1.002973
30/04/2024	19:57:15.319929	-0.007086	0.014066	1.004020
30/04/2024	19:57:15.327906	-0.006961	0.014195	1.004188
30/04/2024	19:57:15.335883	-0.007012	0.014125	1.004121
30/04/2024	19:57:15.343860	-0.006957	0.014063	1.003129
30/04/2024	19:57:15.351837	-0.006867	0.013973	1.002793
30/04/2024	19:57:15.359814	-0.006949	0.014133	1.002852
30/04/2024	19:57:15.367791	-0.006934	0.014234	1.003848
30/04/2024	19:57:15.375768	-0.006891	0.014484	1.003797
30/04/2024	19:57:15.383745	-0.006887	0.014191	1.003750
30/04/2024	19:57:15.391722	-0.007027	0.014063	1.003547
30/04/2024	19:57:15.399699	-0.007027	0.014102	1.002695
30/04/2024	19:57:15.407676	-0.006992	0.014094	1.002379
30/04/2024	19:57:15.415653	-0.006859	0.014016	1.003461
30/04/2024	19:57:15.423630	-0.006859	0.014195	1.003770
30/04/2024	19:57:15.431607	-0.006773	0.014297	1.004121
30/04/2024	19:57:15.439584	-0.006785	0.014195	1.003637
30/04/2024	19:57:15.447561	-0.007121	0.014109	1.003293
30/04/2024	19:57:15.455538	-0.007059	0.014156	1.002770
30/04/2024	19:57:15.463515	-0.006828	0.014094	1.003344
30/04/2024	19:57:15.471492	-0.006840	0.014352	1.003559
30/04/2024	19:57:15.479469	-0.006750	0.014340	1.004191
30/04/2024	19:57:15.487446	-0.006805	0.014336	1.003707
30/04/2024	19:57:15.495423	-0.006895	0.014152	1.003449
30/04/2024	19:57:15.503400	-0.007051	0.014156	1.002813
30/04/2024	19:57:15.511377	-0.007027	0.013977	1.003582
30/04/2024	19:57:15.519354	-0.006809	0.014277	1.003426
30/04/2024	19:57:15.527331	-0.006906	0.014035	1.004047
30/04/2024	19:57:15.535308	-0.006914	0.014168	1.003836
30/04/2024	19:57:15.543294	-0.006859	0.014266	1.003293
30/04/2024	19:57:15.551271	-0.007027	0.013961	1.002484
30/04/2024	19:57:15.559248	-0.007074	0.013762	1.003570
30/04/2024	19:57:15.567225	-0.006891	0.014246	1.003367
30/04/2024	19:57:15.575202	-0.006809	0.014105	1.004043
30/04/2024	19:57:15.583179	-0.006906	0.014023	1.003891
30/04/2024	19:57:15.591156	-0.007035	0.013992	1.003652
30/04/2024	19:57:15.599133	-0.007039	0.014023	1.002832
30/04/2024	19:57:15.607110	-0.006824	0.014023	1.003582
30/04/2024	19:57:15.615087	-0.006949	0.014148	1.003562
30/04/2024	19:57:15.623064	-0.006930	0.014234	1.004305
30/04/2024	19:57:15.631041	-0.006758	0.014254	1.004000
30/04/2024	19:57:15.639018	-0.006707	0.013973	1.003492
30/04/2024	19:57:15.646995	-0.006875	0.014074	1.002742
30/04/2024	19:57:15.654972	-0.006984	0.014008	1.003094
30/04/2024	19:57:15.662949	-0.006934	0.013918	1.003184
30/04/2024	19:57:15.670926	-0.006797	0.013996	1.003766
30/04/2024	19:57:15.678903	-0.006762	0.014383	1.003871
30/04/2024	19:57:15.686880	-0.006852	0.014215	1.003641
30/04/2024	19:57:15.694857	-0.006926	0.014195	1.002930
30/04/2024	19:57:15.702834	-0.006977	0.014016	1.003187
30/04/2024	19:57:15.710811	-0.006918	0.014188	1.003223
30/04/2024	19:57:15.718788	-0.006930	0.014141	1.003602
30/04/2024	19:57:15.726765	-0.006941	0.014160	1.003676
30/04/2024	19:57:15.734742	-0.006883	0.014199	1.003672
30/04/2024	19:57:15.742719	-0.006766	0.014352	1.003141
30/04/2024	19:57:15.750696	-0.006859	0.014266	1.003031
30/04/2024	19:57:15.758673	-0.006922	0.014320	1.003246
30/04/2024	19:57:15.766650	-0.007023	0.014176	1.003445
30/04/2024	19:57:15.774627	-0.006895	0.014133	1.003844
30/04/2024	19:57:15.782604	-0.006984	0.014023	1.003711
30/04/2024	19:57:15.790581	-0.006926	0.014148	1.003516
30/04/2024	19:57:15.798558	-0.006949	0.014098	1.003508
30/04/2024	19:57:15.806535	-0.006949	0.014027	1.003258
30/04/2024	19:57:15.814512	-0.006895	0.014242	1.003117
30/04/2024	19:57:15.822489	-0.006824	0.014172	1.003898
30/04/2024	19:57:15.830466	-0.006906	0.013984	1.004000
30/04/2024	19:57:15.838443	-0.006973	0.013965	1.003402
30/04/2024	19:57:15.846420	-0.007141	0.013996	1.003391
30/04/2024	19:57:15.854397	-0.006863	0.014090	1.003109
30/04/2024	19:57:15.862374	-0.006727	0.014133	1.002836
30/04/2024	19:57:15.870351	-0.006742	0.014242	1.004055
30/04/2024	19:57:15.878328	-0.006875	0.014266	1.004156
30/04/2024	19:57:15.886305	-0.006852	0.014238	1.003684
30/04/2024	19:57:15.894282	-0.006984	0.014094	1.003289
30/04/2024	19:57:15.902259	-0.007027	0.014102	1.003242
30/04/2024	19:57:15.910236	-0.006887	0.014023	1.003039
30/04/2024	19:57:15.918213	-0.006859	0.014090	1.003621
30/04/2024	19:57:15.926190	-0.006766	0.014109	1.003645
30/04/2024	19:57:15.934167	-0.006863	0.014348	1.003934
30/04/2024	19:57:15.942144	-0.006953	0.014238	1.003289
30/04/2024	19:57:15.950121	-0.007012	0.013973	1.003461
30/04/2024	19:57:15.958098	-0.006953	0.014039	1.003168
30/04/2024	19:57:15.966075	-0.006816	0.014133	1.003754
30/04/2024	19:57:15.974052	-0.006828	0.014098	1.003578
30/04/2024	19:57:15.982029	-0.006910	0.014137	1.003605
30/04/2024	19:57:15.990006	-0.006789	0.014152	1.003152
30/04/2024	19:57:15.997983	-0.006832	0.014039	1.003336
30/04/2024	19:57:16.005960	-0.006836	0.014207	1.002906
30/04/2024	19:57:16.013937	-0.006875	0.014199	1.003625
30/04/2024	19:57:16.021914	-0.006852	0.014129	1.003516
30/04/2024	19:57:16.029891	-0.006820	0.014172	1.003578
30/04/2024	19:57:16.037868	-0.006906	0.014344	1.003227
30/04/2024	19:57:16.045845	-0.006945	0.014270	1.003715
30/04/2024	19:57:16.053822	-0.006781	0.014391	1.003051
30/04/2024	19:57:16.061799	-0.006730	0.014141	1.003363
30/04/2024	19:57:16.069776	-0.006789	0.014121	1.003164
30/04/2024	19:57:16.077753	-0.006844	0.014285	1.003562
30/04/2024	19:57:16.085730	-0.006867	0.014145	1.003375
30/04/2024	19:57:16.093707	-0.007055	0.013957	1.003594
30/04/2024	19:57:16.101684	-0.006914	0.014234	1.003023
30/04/2024	19:57:16.109661	-0.006848	0.014281	1.003535
30/04/2024	19:57:16.117638	-0.006773	0.014172	1.003137
30/04/2024	19:57:16.125615	-0.006816	0.014176	1.003543
30/04/2024	19:57:16.133592	-0.006816	0.014332	1.003238
30/04/2024	19:57:16.141569	-0.006926	0.014176	1.003906
30/04/2024	19:57:16.149546	-0.006766	0.014168	1.003191
30/04/2024	19:57:16.157523	-0.006848	0.014172	1.003520
30/04/2024	19:57:16.165500	-0.006785	0.014156	1.003488
30/04/2024	19:57:16.173477	-0.006992	0.013980	1.003418
30/04/2024	19:57:16.181454	-0.006824	0.014184	1.003250
30/04/2024	19:57:16.189431	-0.007020	0.014180	1.003980
30/04/2024	19:57:16.197408	-0.006820	0.014125	1.003660
30/04/2024	19:57:16.205385	-0.006887	0.014039	1.003508
30/04/2024	19:57:16.213362	-0.006977	0.014129	1.003332
30/04/2024	19:57:16.221339	-0.006832	0.013996	1.003426
30/04/2024	19:57:16.229316	-0.006742	0.014063	1.003168
30/04/2024	19:57:16.237293	-0.006988	0.013867	1.003930
30/04/2024	19:57:16.245270	-0.007004	0.014238	1.003086
30/04/2024	19:57:16.253247	-0.006910	0.014180	1.003523
30/04/2024	19:57:16.261224	-0.006879	0.014035	1.003305
30/04/2024	19:57:16.269201	-0.007012	0.014199	1.003594
30/04/2024	19:57:16.277178	-0.006996	0.014219	1.003422
30/04/2024	19:57:16.285155	-0.006945	0.014152	1.003516
30/04/2024	19:57:16.293132	-0.006910	0.014094	1.003293
30/04/2024	19:57:16.301109	-0.006859	0.014250	1.003508
30/04/2024	19:57:16.309086	-0.006750	0.014195	1.003277
30/04/2024	19:57:16.317063	-0.006875	0.013988	1.003410
30/04/2024	19:57:16.325040	-0.007039	0.014316	1.003293
30/04/2024	19:57:16.333017	-0.006984	0.014324	1.003840
30/04/2024	19:57:16.340994	-0.006844	0.014102	1.003328
30/04/2024	19:57:16.348971	-0.006895	0.014129	1.003043
30/04/2024	19:57:16.356948	-0.007000	0.014102	1.003313
30/04/2024	19:57:16.364925	-0.007008	0.014270	1.003289
30/04/2024	19:57:16.372902	-0.006930	0.014316	1.003305
30/04/2024	19:57:16.380879	-0.006855	0.014258	1.003633
30/04/2024	19:57:16.388856	-0.006863	0.014297	1.003395
30/04/2024	19:57:16.396833	-0.006957	0.014145	1.003387
30/04/2024	19:57:16.404810	-0.007043	0.014090	1.003277
30/04/2024	19:57:16.412787	-0.006918	0.014027	1.003465
30/04/2024	19:57:16.420764	-0.006805	0.014172	1.003344
30/04/2024	19:57:16.428741	-0.006770	0.014164	1.003406
30/04/2024	19:57:16.436718	-0.006809	0.014137	1.003453
30/04/2024	19:57:16.444695	-0.006875	0.014305	1.003406
30/04/2024	19:57:16.452672	-0.006844	0.014176	1.003359
30/04/2024	19:57:16.460649	-0.006938	0.014074	1.003273
30/04/2024	19:57:16.468626	-0.006738	0.014137	1.003465
30/04/2024	19:57:16.476603	-0.006875	0.014102	1.003375
30/04/2024	19:57:16.484580	-0.006871	0.014066	1.003613
30/04/2024	19:57:16.492557	-0.007027	0.014148	1.003547
30/04/2024	19:57:16.500534	-0.006965	0.014156	1.003328
30/04/2024	19:57:16.508511	-0.006793	0.014137	1.003633
30/04/2024	19:57:16.516488	-0.006797	0.014109	1.003449
30/04/2024	19:57:16.524465	-0.006863	0.014129	1.003246
30/04/2024	19:57:16.532442	-0.007008	0.014055	1.003492
30/04/2024	19:57:16.540427	-0.006973	0.013961	1.003238
30/04/2024	19:57:16.548404	-0.007008	0.013953	1.003703
30/04/2024	19:57:16.556381	-0.007051	0.014125	1.003520
30/04/2024	19:57:16.564358	-0.006824	0.014156	1.003742
30/04/2024	19:57:16.572335	-0.006820	0.014051	1.003586
30/04/2024	19:57:16.580312	-0.006898	0.013938	1.003797
30/04/2024	19:57:16.588289	-0.006844	0.014086	1.003336
30/04/2024	19:57:16.596266	-0.006910	0.014004	1.003812
30/04/2024	19:57:16.604243	-0.007082	0.013977	1.003816
30/04/2024	19:57:16.612220	-0.007203	0.014211	1.003855
30/04/2024	19:57:16.620197	-0.006906	0.014121	1.003527
30/04/2024	19:57:16.628174	-0.006902	0.014035	1.003383
30/04/2024	19:57:16.636151	-0.006910	0.014191	1.002547
30/04/2024	19:57:16.644128	-0.006770	0.014332	1.003488
30/04/2024	19:57:16.652105	-0.006805	0.014227	1.003363
30/04/2024	19:57:16.660082	-0.006777	0.014000	1.003828
30/04/2024	19:57:16.668059	-0.006934	0.014078	1.002957
30/04/2024	19:57:16.676036	-0.007051	0.014066	1.003211
30/04/2024	19:57:16.684013	-0.006809	0.014070	1.002902
30/04/2024	19:57:16.691990	-0.006789	0.013973	1.003445
30/04/2024	19:57:16.699967	-0.006836	0.014270	1.003586
30/04/2024	19:57:16.707944	-0.006930	0.014195	1.003684
30/04/2024	19:57:16.715921	-0.006891	0.014320	1.003313
30/04/2024	19:57:16.723898	-0.007039	0.014160	1.003633
30/04/2024	19:57:16.731875	-0.007059	0.014270	1.003113
30/04/2024	19:57:16.739852	-0.007059	0.014020	1.003133
30/04/2024	19:57:16.747829	-0.006863	0.014254	1.003262
30/04/2024	19:57:16.755806	-0.006805	0.014262	1.004559
30/04/2024	19:57:16.763783	-0.006793	0.014227	1.003879
30/04/2024	19:57:16.771760	-0.006934	0.014156	1.003504
30/04/2024	19:57:16.779737	-0.006871	0.014141	1.002438
30/04/2024	19:57:16.787714	-0.006914	0.014086	1.003313
30/04/2024	19:57:16.795691	-0.007035	0.014063	1.003926
30/04/2024	19:57:16.803668	-0.006723	0.014098	1.003762
30/04/2024	19:57:16.811645	-0.006793	0.014289	1.003176
30/04/2024	19:57:16.819622	-0.006832	0.013984	1.003863
30/04/2024	19:57:16.827599	-0.007016	0.014004	1.003656
30/04/2024	19:57:16.835576	-0.007012	0.013957	1.003867
30/04/2024	19:57:16.843553	-0.006723	0.014184	1.003172
30/04/2024	19:57:16.851530	-0.006871	0.014125	1.003391
30/04/2024	19:57:16.859507	-0.006941	0.014066	1.003809
30/04/2024	19:57:16.867484	-0.007051	0.014121	1.004434
30/04/2024	19:57:16.875461	-0.006867	0.014039	1.003207
30/04/2024	19:57:16.883438	-0.006824	0.013980	1.003113
30/04/2024	19:57:16.891415	-0.006961	0.014059	1.003191
30/04/2024	19:57:16.899392	-0.007000	0.014027	1.003980
30/04/2024	19:57:16.907369	-0.006824	0.014098	1.003492
30/04/2024	19:57:16.915346	-0.006836	0.014012	1.003320
30/04/2024	19:57:16.923323	-0.006875	0.014156	1.003332
30/04/2024	19:57:16.931300	-0.006824	0.013953	1.003570
30/04/2024	19:57:16.939277	-0.006984	0.014035	1.003602
30/04/2024	19:57:16.947254	-0.006980	0.014117	1.003633
30/04/2024	19:57:16.955231	-0.006816	0.014215	1.003230
30/04/2024	19:57:16.963208	-0.006934	0.014289	1.003469
30/04/2024	19:57:16.971185	-0.006902	0.014230	1.003437
30/04/2024	19:57:16.979162	-0.007082	0.014363	1.003355
30/04/2024	19:57:16.987139	-0.006855	0.014129	1.003184
30/04/2024	19:57:16.995116	-0.007043	0.014074	1.003402
30/04/2024	19:57:17.003093	-0.007066	0.014168	1.003590
30/04/2024	19:57:17.011070	-0.006973	0.014086	1.003723
30/04/2024	19:57:17.019047	-0.006801	0.014113	1.003254
30/04/2024	19:57:17.027024	-0.006922	0.014172	1.003094
30/04/2024	19:57:17.035001	-0.006945	0.014223	1.003270
30/04/2024	19:57:17.042978	-0.007070	0.014227	1.003590
30/04/2024	19:57:17.050955	-0.007109	0.014371	1.003539
30/04/2024	19:57:17.058932	-0.006973	0.014160	1.003531
30/04/2024	19:57:17.066909	-0.006926	0.014191	1.003551
30/04/2024	19:57:17.074886	-0.006805	0.013953	1.003195
30/04/2024	19:57:17.082863	-0.006828	0.014008	1.003527
30/04/2024	19:57:17.090840	-0.006941	0.014109	1.003488
30/04/2024	19:57:17.098817	-0.006941	0.014230	1.003402
30/04/2024	19:57:17.106794	-0.006969	0.014129	1.003449
30/04/2024	19:57:17.114771	-0.007074	0.014113	1.003641
30/04/2024	19:57:17.122748	-0.006973	0.014227	1.003363
30/04/2024	19:57:17.130725	-0.006848	0.014070	1.003238
30/04/2024	19:57:17.138702	-0.006727	0.014023	1.003418
30/04/2024	19:57:17.146679	-0.006684	0.014145	1.003492
30/04/2024	19:57:17.154656	-0.006723	0.014141	1.003387
30/04/2024	19:57:17.162633	-0.006781	0.014273	1.003672
30/04/2024	19:57:17.170610	-0.006918	0.014203	1.003328
30/04/2024	19:57:17.178587	-0.006949	0.014020	1.003375
30/04/2024	19:57:17.186564	-0.006891	0.013973	1.003137
30/04/2024	19:57:17.194541	-0.007004	0.014070	1.003516
30/04/2024	19:57:17.202518	-0.006953	0.014180	1.003738
30/04/2024	19:57:17.210495	-0.006809	0.014195	1.003766
30/04/2024	19:57:17.218472	-0.006891	0.014191	1.003313
30/04/2024	19:57:17.226449	-0.007059	0.014297	1.003629
30/04/2024	19:57:17.234426	-0.007023	0.014137	1.003141
30/04/2024	19:57:17.242403	-0.006918	0.014102	1.003512
30/04/2024	19:57:17.250380	-0.006945	0.014066	1.003648
30/04/2024	19:57:17.258357	-0.006922	0.013973	1.003855
30/04/2024	19:57:17.266334	-0.006785	0.014215	1.003352
30/04/2024	19:57:17.274311	-0.006699	0.014023	1.003285
30/04/2024	19:57:17.282288	-0.007023	0.014152	1.003246
30/04/2024	19:57:17.290265	-0.007012	0.013980	1.003523
30/04/2024	19:57:17.298242	-0.006887	0.014156	1.003375
30/04/2024	19:57:17.306219	-0.006766	0.014129	1.004164
30/04/2024	19:57:17.314196	-0.006902	0.014270	1.003301
30/04/2024	19:57:17.322173	-0.006926	0.014199	1.003406
30/04/2024	19:57:17.330150	-0.007023	0.014219	1.003148
30/04/2024	19:57:17.338127	-0.006852	0.014195	1.003367
30/04/2024	19:57:17.346104	-0.006906	0.014500	1.003270
30/04/2024	19:57:17.354081	-0.006926	0.014406	1.003941
30/04/2024	19:57:17.362058	-0.006648	0.014219	1.003297
30/04/2024	19:57:17.370035	-0.006699	0.014160	1.003398
30/04/2024	19:57:17.378012	-0.006992	0.014219	1.003187
30/04/2024	19:57:17.385989	-0.006965	0.014105	1.003453
30/04/2024	19:57:17.393966	-0.007000	0.014219	1.003168
30/04/2024	19:57:17.401943	-0.006895	0.014168	1.003535
30/04/2024	19:57:17.409920	-0.006684	0.014258	1.003336
30/04/2024	19:57:17.417897	-0.006820	0.014090	1.003793
30/04/2024	19:57:17.425874	-0.006992	0.014070	1.003734
30/04/2024	19:57:17.433851	-0.006930	0.014156	1.003500
30/04/2024	19:57:17.441828	-0.006797	0.014156	1.003270
30/04/2024	19:57:17.449805	-0.006965	0.014063	1.003711
30/04/2024	19:57:17.457782	-0.007023	0.014203	1.003461
30/04/2024	19:57:17.465759	-0.007008	0.014168	1.003926
30/04/2024	19:57:17.473736	-0.006738	0.014090	1.003266
30/04/2024	19:57:17.481713	-0.006980	0.013930	1.003305
30/04/2024	19:57:17.489690	-0.006918	0.014141	1.003105
30/04/2024	19:57:17.497667	-0.006887	0.014074	1.003953
30/04/2024	19:57:17.505644	-0.006949	0.013883	1.003676
30/04/2024	19:57:17.513621	-0.006988	0.013996	1.003762
30/04/2024	19:57:17.521598	-0.006809	0.014066	1.003309
30/04/2024	19:57:17.529575	-0.007008	0.014059	1.003496
30/04/2024	19:57:17.537577	-0.006895	0.014035	1.002840
30/04/2024	19:57:17.545554	-0.006898	0.014094	1.003641
30/04/2024	19:57:17.553531	-0.006922	0.014191	1.003543
30/04/2024	19:57:17.561508	-0.006898	0.014000	1.003719
30/04/2024	19:57:17.569485	-0.007027	0.014004	1.003832
30/04/2024	19:57:17.577462	-0.007043	0.014105	1.003523
30/04/2024	19:57:17.585439	-0.006859	0.014043	1.002988
30/04/2024	19:57:17.593416	-0.006801	0.014211	1.003746
30/04/2024	19:57:17.601393	-0.006867	0.014371	1.003723
30/04/2024	19:57:17.609370	-0.006832	0.014211	1.003969
30/04/2024	19:57:17.617347	-0.006762	0.014180	1.003199
30/04/2024	19:57:17.625324	-0.007105	0.014137	1.003523
30/04/2024	19:57:17.633301	-0.007031	0.014082	1.003242
30/04/2024	19:57:17.641278	-0.006863	0.014066	1.003250
30/04/2024	19:57:17.649255	-0.006687	0.014102	1.003191
30/04/2024	19:57:17.657232	-0.006742	0.014246	1.003656
30/04/2024	19:57:17.665209	-0.006949	0.014328	1.003883
30/04/2024	19:57:17.673186	-0.006891	0.014113	1.003844
30/04/2024	19:57:17.681163	-0.006965	0.014199	1.002898
30/04/2024	19:57:17.689140	-0.007113	0.014305	1.003031
30/04/2024	19:57:17.697117	-0.007023	0.014242	1.003727
30/04/2024	19:57:17.705094	-0.006855	0.014281	1.003773
30/04/2024	19:57:17.713071	-0.006562	0.014336	1.003441
30/04/2024	19:57:17.721048	-0.006871	0.014246	1.002969
30/04/2024	19:57:17.729025	-0.006922	0.013996	1.003355
30/04/2024	19:57:17.737002	-0.007059	0.014031	1.003937
30/04/2024	19:57:17.744979	-0.006996	0.014141	1.003664
30/04/2024	19:57:17.752956	-0.006687	0.014309	1.003051
30/04/2024	19:57:17.760933	-0.006805	0.014191	1.003426
30/04/2024	19:57:17.768910	-0.006973	0.014105	1.003766
30/04/2024	19:57:17.776887	-0.006953	0.014305	1.003531
30/04/2024	19:57:17.784864	-0.006926	0.014133	1.002914
30/04/2024	19:57:17.792841	-0.006762	0.014219	1.003246
30/04/2024	19:57:17.800818	-0.006859	0.014238	1.003730
30/04/2024	19:57:17.808795	-0.006883	0.014191	1.004055
30/04/2024	19:57:17.816772	-0.006938	0.014020	1.003203
30/04/2024	19:57:17.824749	-0.006840	0.014121	1.003160
30/04/2024	19:57:17.832726	-0.006832	0.014141	1.003305
30/04/2024	19:57:17.840703	-0.006914	0.014016	1.003887
30/04/2024	19:57:17.848680	-0.007188	0.014156	1.003766
30/04/2024	19:57:17.856657	-0.007059	0.014059	1.003672
30/04/2024	19:57:17.864634	-0.006914	0.013898	1.003402
30/04/2024	19:57:17.872611	-0.006871	0.014008	1.003590
30/04/2024	19:57:17.880588	-0.006754	0.014000	1.003230
30/04/2024	19:57:17.888565	-0.006824	0.014203	1.003652
30/04/2024	19:57:17.896542	-0.006859	0.014098	1.003410
30/04/2024	19:57:17.904519	-0.007199	0.013996	1.003711
30/04/2024	19:57:17.912496	-0.007098	0.014035	1.003742
30/04/2024	19:57:17.920473	-0.007043	0.014141	1.003617
30/04/2024	19:57:17.928450	-0.006840	0.014129	1.003293
30/04/2024	19:57:17.936427	-0.006809	0.014105	1.003824
30/04/2024	19:57:17.944404	-0.006687	0.014168	1.003414
30/04/2024	19:57:17.952381	-0.006836	0.014125	1.003902
30/04/2024	19:57:17.960358	-0.007012	0.013883	1.003430
30/04/2024	19:57:17.968335	-0.006934	0.014039	1.003293
30/04/2024	19:57:17.976312	-0.007008	0.014340	1.003297
30/04/2024	19:57:17.984289	-0.006922	0.014180	1.003719
30/04/2024	19:57:17.992266	-0.006812	0.014098	1.003227
30/04/2024	19:57:18.000243	-0.006840	0.014301	1.003582
30/04/2024	19:57:18.008220	-0.006852	0.014188	1.003664
30/04/2024	19:57:18.016197	-0.006883	0.014082	1.003547
30/04/2024	19:57:18.024174	-0.006883	0.014074	1.002934
30/04/2024	19:57:18.032151	-0.006828	0.014160	1.003543
30/04/2024	19:57:18.040128	-0.006715	0.014168	1.003238
30/04/2024	19:57:18.048105	-0.006980	0.014180	1.003496
30/04/2024	19:57:18.056082	-0.006793	0.014277	1.003430
30/04/2024	19:57:18.064059	-0.006844	0.014184	1.003418
30/04/2024	19:57:18.072036	-0.006957	0.014180	1.003152
30/04/2024	19:57:18.080013	-0.006934	0.014141	1.003953
30/04/2024	19:57:18.087990	-0.006871	0.014348	1.003437
30/04/2024	19:57:18.095967	-0.006887	0.014141	1.003488
30/04/2024	19:57:18.103944	-0.006934	0.014105	1.003289
30/04/2024	19:57:18.111921	-0.006812	0.014094	1.003289
30/04/2024	19:57:18.119898	-0.006855	0.014129	1.003125
30/04/2024	19:57:18.127875	-0.006906	0.013969	1.003398
30/04/2024	19:57:18.135852	-0.007219	0.014043	1.003379
30/04/2024	19:57:18.143829	-0.007023	0.014176	1.003820
30/04/2024	19:57:18.151806	-0.006711	0.014137	1.003437
30/04/2024	19:57:18.159783	-0.006898	0.013934	1.003344
30/04/2024	19:57:18.167760	-0.006812	0.014031	1.003031
30/04/2024	19:57:18.175737	-0.006715	0.014078	1.003414
30/04/2024	19:57:18.183714	-0.006832	0.014063	1.003172
30/04/2024	19:57:18.191691	-0.006941	0.014309	1.003535
30/04/2024	19:57:18.199668	-0.007035	0.014176	1.003617
30/04/2024	19:57:18.207645	-0.007039	0.014078	1.003078
30/04/2024	19:57:18.215622	-0.007082	0.013965	1.003246
30/04/2024	19:57:18.223599	-0.007008	0.014051	1.003594
30/04/2024	19:57:18.231576	-0.006980	0.014043	1.003437
30/04/2024	19:57:18.239553	-0.006898	0.014090	1.003543
30/04/2024	19:57:18.247530	-0.007039	0.014273	1.003594
30/04/2024	19:57:18.255507	-0.007121	0.014227	1.003898
30/04/2024	19:57:18.263484	-0.006875	0.014090	1.003473
30/04/2024	19:57:18.271461	-0.006926	0.014078	1.003426
30/04/2024	19:57:18.279438	-0.006930	0.014129	1.003598
30/04/2024	19:57:18.287415	-0.006789	0.014082	1.003535
30/04/2024	19:57:18.295392	-0.006684	0.014020	1.003570
30/04/2024	19:57:18.303369	-0.006906	0.013902	1.003828
30/04/2024	19:57:18.311346	-0.006801	0.014191	1.003066
30/04/2024	19:57:18.319323	-0.007094	0.014285	1.003309
30/04/2024	19:57:18.327300	-0.006988	0.014125	1.003770
30/04/2024	19:57:18.335277	-0.007129	0.014223	1.003543
30/04/2024	19:57:18.343254	-0.006711	0.014320	1.003500
30/04/2024	19:57:18.351231	-0.006582	0.014191	1.003043
30/04/2024	19:57:18.359208	-0.006773	0.014242	1.003426
30/04/2024	19:57:18.367185	-0.006961	0.014137	1.003617
30/04/2024	19:57:18.375162	-0.006848	0.014059	1.003539
30/04/2024	19:57:18.383139	-0.006840	0.014102	1.002965
30/04/2024	19:57:18.391116	-0.006719	0.014285	1.003316
30/04/2024	19:57:18.399093	-0.006746	0.014074	1.003605
30/04/2024	19:57:18.407070	-0.006910	0.014137	1.003727
30/04/2024	19:57:18.415047	-0.006910	0.014102	1.003137
30/04/2024	19:57:18.423024	-0.006875	0.014184	1.003027
30/04/2024	19:57:18.431001	-0.006988	0.014293	1.003156
30/04/2024	19:57:18.438978	-0.007039	0.014152	1.004105
30/04/2024	19:57:18.446955	-0.006801	0.014219	1.003652
30/04/2024	19:57:18.454932	-0.006617	0.014191	1.003273
30/04/2024	19:57:18.462909	-0.006746	0.014195	1.003020
30/04/2024	19:57:18.470886	-0.006855	0.014227	1.003777
30/04/2024	19:57:18.478863	-0.006766	0.014391	1.003676
30/04/2024	19:57:18.486840	-0.006727	0.014156	1.003445
30/04/2024	19:57:18.494817	-0.006793	0.014168	1.003242
30/04/2024	19:57:18.502794	-0.007086	0.014215	1.003664
30/04/2024	19:57:18.510771	-0.006785	0.014219	1.003656
30/04/2024	19:57:18.518748	-0.006789	0.014121	1.003641
30/04/2024	19:57:18.526725	-0.006652	0.014148	1.003273
30/04/2024	19:57:18.534710	-0.006848	0.014133	1.003469
30/04/2024	19:57:18.542687	-0.006875	0.014148	1.004059
30/04/2024	19:57:18.550664	-0.006957	0.014141	1.003840
30/04/2024	19:57:18.558641	-0.006883	0.014039	1.002820
30/04/2024	19:57:18.566618	-0.007055	0.013930	1.003480
30/04/2024	19:57:18.574595	-0.006953	0.014066	1.003254
30/04/2024	19:57:18.582572	-0.006980	0.014043	1.003754
30/04/2024	19:57:18.590549	-0.006859	0.014012	1.003543
30/04/2024	19:57:18.598526	-0.006836	0.014059	1.003320
30/04/2024	19:57:18.606503	-0.006918	0.014109	1.003234
30/04/2024	19:57:18.614480	-0.006977	0.014082	1.003793
30/04/2024	19:57:18.622457	-0.006711	0.014355	1.003316
30/04/2024	19:57:18.630434	-0.006852	0.014035	1.003625
30/04/2024	19:57:18.638411	-0.006930	0.014227	1.003605
30/04/2024	19:57:18.646388	-0.007039	0.014211	1.003609
30/04/2024	19:57:18.654365	-0.006973	0.014133	1.003168
30/04/2024	19:57:18.662342	-0.006977	0.014172	1.003480
30/04/2024	19:57:18.670319	-0.007004	0.014215	1.003031
30/04/2024	19:57:18.678296	-0.006980	0.014035	1.003422
30/04/2024	19:57:18.686273	-0.006734	0.014047	1.003418
30/04/2024	19:57:18.694250	-0.006707	0.014211	1.003711
30/04/2024	19:57:18.702227	-0.006887	0.014133	1.002969
30/04/2024	19:57:18.710204	-0.006988	0.014102	1.003727
30/04/2024	19:57:18.718181	-0.006797	0.014211	1.003316
30/04/2024	19:57:18.726158	-0.006883	0.014191	1.003215
30/04/2024	19:57:18.734135	-0.006859	0.014305	1.003480
30/04/2024	19:57:18.742112	-0.006797	0.014207	1.003867
30/04/2024	19:57:18.750089	-0.006957	0.014012	1.003250
30/04/2024	19:57:18.758066	-0.007055	0.013852	1.003520
30/04/2024	19:57:18.766043	-0.006934	0.014207	1.002926
30/04/2024	19:57:18.774020	-0.006926	0.014043	1.003254
30/04/2024	19:57:18.781997	-0.006980	0.014281	1.003684
30/04/2024	19:57:18.789974	-0.006930	0.014176	1.004156
30/04/2024	19:57:18.797951	-0.006922	0.014230	1.003734
30/04/2024	19:57:18.805928	-0.007043	0.014125	1.003797
30/04/2024	19:57:18.813905	-0.006973	0.014238	1.003277
30/04/2024	19:57:18.821882	-0.007016	0.014109	1.003484
30/04/2024	19:57:18.829859	-0.006844	0.014098	1.003500
30/04/2024	19:57:18.837836	-0.006758	0.014105	1.003488
30/04/2024	19:57:18.845813	-0.006781	0.014270	1.003418
30/04/2024	19:57:18.853790	-0.006922	0.014270	1.003945
30/04/2024	19:57:18.861767	-0.006836	0.014340	1.002840
30/04/2024	19:57:18.869744	-0.007031	0.014176	1.002980
30/04/2024	19:57:18.877721	-0.006844	0.014234	1.003395
30/04/2024	19:57:18.885698	-0.006809	0.014207	1.003527
30/04/2024	19:57:18.893675	-0.006570	0.014184	1.003570
30/04/2024	19:57:18.901652	-0.006652	0.014109	1.003555
30/04/2024	19:57:18.909629	-0.006703	0.014324	1.003211
30/04/2024	19:57:18.917606	-0.006992	0.014227	1.003660
30/04/2024	19:57:18.925583	-0.007027	0.014074	1.003715
30/04/2024	19:57:18.933560	-0.006863	0.014102	1.003410
30/04/2024	19:57:18.941537	-0.006656	0.014117	1.003141
30/04/2024	19:57:18.949514	-0.006801	0.014203	1.003863
30/04/2024	19:57:18.957491	-0.006832	0.014352	1.004145
30/04/2024	19:57:18.965468	-0.007023	0.014289	1.003559
30/04/2024	19:57:18.973445	-0.006887	0.014215	1.003191
30/04/2024	19:57:18.981422	-0.007035	0.014004	1.003230
30/04/2024	19:57:18.989399	-0.006996	0.014113	1.003422
30/04/2024	19:57:18.997376	-0.006867	0.013992	1.003270
30/04/2024	19:57:19.005353	-0.006730	0.014016	1.003277
30/04/2024	19:57:19.013330	-0.006914	0.014121	1.003297
30/04/2024	19:57:19.021307	-0.006922	0.014102	1.003805
30/04/2024	19:57:19.029284	-0.006906	0.014051	1.003566
30/04/2024	19:57:19.037261	-0.007004	0.014113	1.003230
30/04/2024	19:57:19.045238	-0.007094	0.014152	1.003305
30/04/2024	19:57:19.053215	-0.006887	0.014129	1.003629
30/04/2024	19:57:19.061192	-0.006895	0.013984	1.003430
30/04/2024	19:57:19.069169	-0.006922	0.014156	1.003445
30/04/2024	19:57:19.077146	-0.007000	0.014191	1.003273
30/04/2024	19:57:19.085123	-0.006801	0.014164	1.003289
30/04/2024	19:57:19.093100	-0.007066	0.013965	1.003785
30/04/2024	19:57:19.101077	-0.007027	0.014078	1.003930
30/04/2024	19:57:19.109054	-0.006934	0.013984	1.003230
30/04/2024	19:57:19.117031	-0.006828	0.013969	1.003520
30/04/2024	19:57:19.125008	-0.007020	0.014086	1.003586
30/04/2024	19:57:19.132985	-0.006941	0.014238	1.003836
30/04/2024	19:57:19.140962	-0.006844	0.014176	1.003387
30/04/2024	19:57:19.148939	-0.006980	0.014070	1.003484
30/04/2024	19:57:19.156916	-0.006945	0.014191	1.003195
30/04/2024	19:57:19.164893	-0.007051	0.014281	1.003574
30/04/2024	19:57:19.172870	-0.007023	0.014129	1.003199
30/04/2024	19:57:19.180847	-0.006918	0.014129	1.003453
30/04/2024	19:57:19.188824	-0.006801	0.014340	1.003242
30/04/2024	19:57:19.196801	-0.006781	0.014301	1.003758
30/04/2024	19:57:19.204778	-0.006687	0.014398	1.003039
30/04/2024	19:57:19.212755	-0.006953	0.014152	1.003887
30/04/2024	19:57:19.220732	-0.006953	0.014266	1.003664
30/04/2024	19:57:19.228709	-0.006770	0.013977	1.003578
30/04/2024	19:57:19.236686	-0.006687	0.013949	1.003465
30/04/2024	19:57:19.244663	-0.006848	0.014086	1.003527
30/04/2024	19:57:19.252640	-0.006758	0.014332	1.003160
30/04/2024	19:57:19.260617	-0.006805	0.014254	1.003555
30/04/2024	19:57:19.268594	-0.006977	0.014434	1.003492
30/04/2024	19:57:19.276571	-0.006871	0.014461	1.003605
30/04/2024	19:57:19.284548	-0.006762	0.014340	1.003129
30/04/2024	19:57:19.292525	-0.006844	0.014242	1.003316
30/04/2024	19:57:19.300502	-0.006965	0.014254	1.003426
30/04/2024	19:57:19.308479	-0.007027	0.014234	1.003508
30/04/2024	19:57:19.316456	-0.006934	0.014184	1.003539
30/04/2024	19:57:19.324433	-0.007074	0.014316	1.003586
30/04/2024	19:57:19.332410	-0.006812	0.014293	1.003008
30/04/2024	19:57:19.340387	-0.006789	0.014039	1.003543
30/04/2024	19:57:19.348364	-0.006980	0.014172	1.003414
30/04/2024	19:57:19.356341	-0.007113	0.014090	1.003715
30/04/2024	19:57:19.364318	-0.006898	0.014059	1.003668
30/04/2024	19:57:19.372295	-0.006867	0.014047	1.003496
30/04/2024	19:57:19.380272	-0.006719	0.014184	1.002824
30/04/2024	19:57:19.388249	-0.006824	0.014227	1.003629
30/04/2024	19:57:19.396226	-0.006902	0.014238	1.003449
30/04/2024	19:57:19.404203	-0.007047	0.014082	1.003820
30/04/2024	19:57:19.412180	-0.006996	0.013930	1.003250
30/04/2024	19:57:19.420157	-0.006945	0.014008	1.003191
30/04/2024	19:57:19.428134	-0.006777	0.014008	1.002965
30/04/2024	19:57:19.436111	-0.007098	0.013973	1.003656
30/04/2024	19:57:19.444088	-0.006977	0.014000	1.003348
30/04/2024	19:57:19.452065	-0.007039	0.014090	1.003754
30/04/2024	19:57:19.460042	-0.006754	0.014188	1.003867
30/04/2024	19:57:19.468019	-0.006672	0.013953	1.003828
30/04/2024	19:57:19.475996	-0.006840	0.014074	1.003203
30/04/2024	19:57:19.483973	-0.006832	0.013797	1.003477
30/04/2024	19:57:19.491950	-0.007008	0.014055	1.003293
30/04/2024	19:57:19.499927	-0.006941	0.014207	1.003875
30/04/2024	19:57:19.507904	-0.006812	0.014137	1.003449
30/04/2024	19:57:19.515881	-0.006871	0.014180	1.003512
30/04/2024	19:57:19.523858	-0.006898	0.014211	1.003469
30/04/2024	19:57:19.531860	-0.006879	0.014215	1.003453
30/04/2024	19:57:19.539837	-0.006770	0.014113	1.003422
30/04/2024	19:57:19.547814	-0.006812	0.014352	1.003523
30/04/2024	19:57:19.555791	-0.006875	0.014227	1.003625
30/04/2024	19:57:19.563768	-0.006891	0.014152	1.003797
30/04/2024	19:57:19.571745	-0.007125	0.014242	1.003320
30/04/2024	19:57:19.579722	-0.006848	0.014203	1.003324
30/04/2024	19:57:19.587699	-0.006992	0.014156	1.003180
30/04/2024	19:57:19.595676	-0.006859	0.014031	1.003348
30/04/2024	19:57:19.603653	-0.006922	0.014281	1.003805
30/04/2024	19:57:19.611630	-0.006992	0.014387	1.003648
30/04/2024	19:57:19.619607	-0.006910	0.014168	1.003105
30/04/2024	19:57:19.627584	-0.006938	0.014137	1.003203
30/04/2024	19:57:19.635561	-0.006906	0.014082	1.003172
30/04/2024	19:57:19.643538	-0.006738	0.014281	1.003176
30/04/2024	19:57:19.651515	-0.006742	0.014227	1.003379
30/04/2024	19:57:19.659492	-0.006805	0.014246	1.004117
30/04/2024	19:57:19.667469	-0.006902	0.014457	1.004012
30/04/2024	19:57:19.675446	-0.006934	0.014242	1.003332
30/04/2024	19:57:19.683423	-0.006895	0.013992	1.003227
30/04/2024	19:57:19.691400	-0.006898	0.014063	1.003074
30/04/2024	19:57:19.699377	-0.006820	0.014184	1.003914
30/04/2024	19:57:19.707354	-0.006867	0.014070	1.003820
30/04/2024	19:57:19.715331	-0.006723	0.014145	1.003582
30/04/2024	19:57:19.723308	-0.006758	0.014133	1.003262
30/04/2024	19:57:19.731285	-0.006734	0.014129	1.003516
30/04/2024	19:57:19.739262	-0.006816	0.014055	1.003523
30/04/2024	19:57:19.747239	-0.006879	0.014180	1.003746
30/04/2024	19:57:19.755216	-0.006852	0.014105	1.003477
30/04/2024	19:57:19.763193	-0.006715	0.014207	1.003613
30/04/2024	19:57:19.771170	-0.006875	0.014051	1.003691
30/04/2024	19:57:19.779147	-0.006844	0.014004	1.003855
30/04/2024	19:57:19.787124	-0.007090	0.013977	1.002895
30/04/2024	19:57:19.795101	-0.006875	0.013859	1.003652
30/04/2024	19:57:19.803078	-0.006848	0.014023	1.003313
30/04/2024	19:57:19.811055	-0.006852	0.014137	1.004023
30/04/2024	19:57:19.819032	-0.006820	0.014137	1.003328
30/04/2024	19:57:19.827009	-0.006949	0.014023	1.003324
30/04/2024	19:57:19.834986	-0.006922	0.014109	1.003191
30/04/2024	19:57:19.842963	-0.006840	0.014125	1.003801
30/04/2024	19:57:19.850940	-0.006695	0.014113	1.003656
30/04/2024	19:57:19.858917	-0.006785	0.014129	1.003574
30/04/2024	19:57:19.866894	-0.006910	0.014285	1.002961
30/04/2024	19:57:19.874871	-0.006980	0.014074	1.003395
30/04/2024	19:57:19.882848	-0.006816	0.014211	1.003152
30/04/2024	19:57:19.890825	-0.007039	0.014098	1.003590
30/04/2024	19:57:19.898802	-0.006934	0.014219	1.003660
30/04/2024	19:57:19.906779	-0.006961	0.014121	1.003762
30/04/2024	19:57:19.914756	-0.006980	0.014059	1.003637
30/04/2024	19:57:19.922733	-0.006992	0.013992	1.003816
30/04/2024	19:57:19.930710	-0.006773	0.014223	1.003117
30/04/2024	19:57:19.938687	-0.006812	0.014102	1.003445
30/04/2024	19:57:19.946664	-0.006812	0.014129	1.003367
30/04/2024	19:57:19.954641	-0.006855	0.014273	1.003805
30/04/2024	19:57:19.962618	-0.006902	0.014242	1.003328
30/04/2024	19:57:19.970595	-0.007047	0.014172	1.003254
30/04/2024	19:57:19.978572	-0.006922	0.014152	1.002891
30/04/2024	19:57:19.986549	-0.006926	0.014016	1.003453
30/04/2024	19:57:19.994526	-0.006762	0.014258	1.003699
30/04/2024	19:57:20.002503	-0.006715	0.014305	1.003664
30/04/2024	19:57:20.010480	-0.006738	0.014441	1.003480
30/04/2024	19:57:20.018457	-0.006973	0.014273	1.003785
30/04/2024	19:57:20.026434	-0.006816	0.014156	1.003520
30/04/2024	19:57:20.034411	-0.006992	0.014043	1.003504
30/04/2024	19:57:20.042388	-0.006781	0.014191	1.003277
30/04/2024	19:57:20.050365	-0.006852	0.013996	1.003613
30/04/2024	19:57:20.058342	-0.006895	0.014383	1.003516
30/04/2024	19:57:20.066319	-0.006883	0.014133	1.003637
30/04/2024	19:57:20.074296	-0.006797	0.014078	1.002918
30/04/2024	19:57:20.082273	-0.006871	0.014008	1.003332
30/04/2024	19:57:20.090250	-0.006832	0.014254	1.003730
30/04/2024	19:57:20.098227	-0.006762	0.014031	1.003672
30/04/2024	19:57:20.106204	-0.006738	0.014070	1.003414
30/04/2024	19:57:20.114181	-0.006738	0.014066	1.003652
30/04/2024	19:57:20.122158	-0.006844	0.014113	1.003535
30/04/2024	19:57:20.130135	-0.006957	0.014074	1.003363
30/04/2024	19:57:20.138112	-0.006801	0.013996	1.003180
30/04/2024	19:57:20.146089	-0.006727	0.014090	1.003457
30/04/2024	19:57:20.154066	-0.006734	0.014293	1.003484
30/04/2024	19:57:20.162043	-0.006918	0.014152	1.003766
30/04/2024	19:57:20.170020	-0.006973	0.014102	1.003391
30/04/2024	19:57:20.177997	-0.007102	0.014109	1.003180
30/04/2024	19:57:20.185974	-0.006984	0.014121	1.003352
30/04/2024	19:57:20.193951	-0.006789	0.014031	1.003641
30/04/2024	19:57:20.201928	-0.006840	0.014254	1.003781
30/04/2024	19:57:20.209905	-0.006934	0.014121	1.003770
30/04/2024	19:57:20.217882	-0.006836	0.014117	1.003484
30/04/2024	19:57:20.225859	-0.006992	0.014074	1.003254
30/04/2024	19:57:20.233836	-0.006922	0.013988	1.003418
30/04/2024	19:57:20.241813	-0.006895	0.013805	1.003355
30/04/2024	19:57:20.249790	-0.007039	0.014109	1.003297
30/04/2024	19:57:20.257767	-0.006871	0.014098	1.003758
30/04/2024	19:57:20.265744	-0.006820	0.014082	1.003633
30/04/2024	19:57:20.273721	-0.006855	0.014234	1.003223
30/04/2024	19:57:20.281698	-0.006863	0.014137	1.003465
30/04/2024	19:57:20.289675	-0.006992	0.014125	1.003367
30/04/2024	19:57:20.297652	-0.006953	0.014164	1.003719
30/04/2024	19:57:20.305629	-0.006977	0.014141	1.003566
30/04/2024	19:57:20.313606	-0.006953	0.014188	1.003598
30/04/2024	19:57:20.321583	-0.006906	0.014289	1.003195
30/04/2024	19:57:20.329560	-0.006902	0.014352	1.003363
30/04/2024	19:57:20.337537	-0.006848	0.014168	1.003398
30/04/2024	19:57:20.345514	-0.006871	0.014215	1.003363
30/04/2024	19:57:20.353491	-0.006734	0.014277	1.003609
30/04/2024	19:57:20.361468	-0.006801	0.014180	1.003953
30/04/2024	19:57:20.369445	-0.006711	0.014203	1.003215
30/04/2024	19:57:20.377422	-0.006875	0.014250	1.003297
30/04/2024	19:57:20.385399	-0.007043	0.014145	1.003398
30/04/2024	19:57:20.393376	-0.006887	0.014262	1.003313
30/04/2024	19:57:20.401353	-0.006699	0.014297	1.003570
30/04/2024	19:57:20.409330	-0.006938	0.014195	1.003738
30/04/2024	19:57:20.417307	-0.006852	0.014176	1.003379
30/04/2024	19:57:20.425284	-0.006852	0.014203	1.003734
30/04/2024	19:57:20.433261	-0.006926	0.014234	1.003227
30/04/2024	19:57:20.441238	-0.006906	0.014117	1.003816
30/04/2024	19:57:20.449215	-0.006789	0.014184	1.003129
30/04/2024	19:57:20.457192	-0.006879	0.014133	1.003965
30/04/2024	19:57:20.465169	-0.006824	0.014320	1.003605
30/04/2024	19:57:20.473146	-0.007039	0.014184	1.003348
30/04/2024	19:57:20.481123	-0.006922	0.013977	1.003262
30/04/2024	19:57:20.489100	-0.006930	0.014172	1.003359
30/04/2024	19:57:20.497077	-0.006781	0.014219	1.003125
30/04/2024	19:57:20.505054	-0.006879	0.014156	1.003648
30/04/2024	19:57:20.513031	-0.006812	0.014133	1.003238
30/04/2024	19:57:20.521008	-0.006836	0.014176	1.003313
30/04/2024	19:57:20.528994	-0.006789	0.014063	1.003406
30/04/2024	19:57:20.536971	-0.006805	0.014156	1.003301
30/04/2024	19:57:20.544948	-0.006887	0.014316	1.003117
30/04/2024	19:57:20.552925	-0.007059	0.014160	1.003793
30/04/2024	19:57:20.560902	-0.006777	0.014242	1.003422
30/04/2024	19:57:20.568879	-0.006922	0.014129	1.003637
30/04/2024	19:57:20.576856	-0.006660	0.014168	1.003480
30/04/2024	19:57:20.584833	-0.006805	0.014191	1.003500
30/04/2024	19:57:20.592810	-0.006988	0.014113	1.003102
30/04/2024	19:57:20.600787	-0.006988	0.014059	1.003676
30/04/2024	19:57:20.608764	-0.006695	0.014223	1.003234
30/04/2024	19:57:20.616741	-0.006770	0.014219	1.003582
30/04/2024	19:57:20.624718	-0.006887	0.014102	1.003328
30/04/2024	19:57:20.632695	-0.006984	0.014023	1.003582
30/04/2024	19:57:20.640672	-0.006969	0.013996	1.003395
30/04/2024	19:57:20.648649	-0.007051	0.014066	1.003309
30/04/2024	19:57:20.656626	-0.006934	0.014328	1.003379
30/04/2024	19:57:20.664603	-0.006816	0.014297	1.003586
30/04/2024	19:57:20.672580	-0.006641	0.014191	1.003629
30/04/2024	19:57:20.680557	-0.006938	0.013965	1.003508
30/04/2024	19:57:20.688534	-0.007004	0.014117	1.003074
30/04/2024	19:57:20.696511	-0.006945	0.013980	1.003684
30/04/2024	19:57:20.704488	-0.006789	0.013965	1.003344
30/04/2024	19:57:20.712465	-0.006711	0.014152	1.003559
30/04/2024	19:57:20.720442	-0.006754	0.014207	1.003242
30/04/2024	19:57:20.728419	-0.006957	0.014082	1.003512
30/04/2024	19:57:20.736396	-0.006832	0.014242	1.003160
30/04/2024	19:57:20.744373	-0.006895	0.014129	1.003695
30/04/2024	19:57:20.752350	-0.006922	0.014168	1.003508
30/04/2024	19:57:20.760327	-0.007051	0.014242	1.003730
30/04/2024	19:57:20.768304	-0.007078	0.014133	1.003652
30/04/2024	19:57:20.776281	-0.006938	0.014066	1.003270
30/04/2024	19:57:20.784258	-0.006848	0.014160	1.003133
30/04/2024	19:57:20.792235	-0.006961	0.014086	1.003605
30/04/2024	19:57:20.800212	-0.006863	0.014273	1.003602
30/04/2024	19:57:20.808189	-0.006957	0.014316	1.003828
30/04/2024	19:57:20.816166	-0.006934	0.014270	1.003484
30/04/2024	19:57:20.824143	-0.006875	0.014137	1.003742
30/04/2024	19:57:20.832120	-0.006820	0.014242	1.003414
30/04/2024	19:57:20.840097	-0.006785	0.014113	1.003074
30/04/2024	19:57:20.848074	-0.006668	0.014066	1.003109
30/04/2024	19:57:20.856051	-0.006887	0.014125	1.003598
30/04/2024	19:57:20.864028	-0.006691	0.014242	1.003883
30/04/2024	19:57:20.872005	-0.006746	0.014215	1.003340
30/04/2024	19:57:20.879982	-0.006863	0.014227	1.003121
30/04/2024	19:57:20.887959	-0.007102	0.014195	1.003066
30/04/2024	19:57:20.895936	-0.006961	0.014047	1.003332
30/04/2024	19:57:20.903913	-0.006914	0.014125	1.003488
30/04/2024	19:57:20.911890	-0.006816	0.014238	1.003613
30/04/2024	19:57:20.919867	-0.006809	0.014313	1.003613
30/04/2024	19:57:20.927844	-0.006902	0.014137	1.003512
30/04/2024	19:57:20.935821	-0.007066	0.014156	1.003047
30/04/2024	19:57:20.943798	-0.006844	0.014168	1.004047
30/04/2024	19:57:20.951775	-0.006781	0.014359	1.003090
30/04/2024	19:57:20.959752	-0.006848	0.014207	1.003504
30/04/2024	19:57:20.967729	-0.006812	0.014160	1.003777
30/04/2024	19:57:20.975706	-0.006789	0.014371	1.003270
30/04/2024	19:57:20.983683	-0.006887	0.014148	1.003895
30/04/2024	19:57:20.991660	-0.006781	0.014250	1.003367
30/04/2024	19:57:20.999637	-0.006992	0.014324	1.003656
30/04/2024	19:57:21.007614	-0.006809	0.014016	1.004094
30/04/2024	19:57:21.015591	-0.006887	0.014020	1.003375
30/04/2024	19:57:21.023568	-0.006863	0.014109	1.003637
30/04/2024	19:57:21.031545	-0.006887	0.014211	1.003363
30/04/2024	19:57:21.039522	-0.006961	0.014133	1.003625
30/04/2024	19:57:21.047499	-0.006957	0.014047	1.003258
30/04/2024	19:57:21.055476	-0.006883	0.014129	1.003762
30/04/2024	19:57:21.063453	-0.006887	0.014113	1.003320
30/04/2024	19:57:21.071430	-0.006902	0.014133	1.003891
30/04/2024	19:57:21.079407	-0.006902	0.014055	1.003129
30/04/2024	19:57:21.087384	-0.006895	0.013961	1.003793
30/04/2024	19:57:21.095361	-0.006812	0.014195	1.003098
30/04/2024	19:57:21.103338	-0.007008	0.014039	1.003566
30/04/2024	19:57:21.111315	-0.007109	0.014094	1.003617
30/04/2024	19:57:21.119292	-0.006992	0.014152	1.003375
30/04/2024	19:57:21.127269	-0.006879	0.014035	1.003098
30/04/2024	19:57:21.135246	-0.006871	0.014109	1.003914
30/04/2024	19:57:21.143223	-0.006605	0.014359	1.003082
30/04/2024	19:57:21.151200	-0.006754	0.014219	1.003480
30/04/2024	19:57:21.159177	-0.006992	0.014094	1.003363
30/04/2024	19:57:21.167154	-0.007027	0.014211	1.003457
30/04/2024	19:57:21.175131	-0.006871	0.014145	1.003187
30/04/2024	19:57:21.183108	-0.006766	0.014043	1.003656
30/04/2024	19:57:21.191085	-0.006832	0.013973	1.003141
30/04/2024	19:57:21.199062	-0.006918	0.014066	1.003496
30/04/2024	19:57:21.207039	-0.006930	0.014207	1.003570
30/04/2024	19:57:21.215016	-0.006922	0.014203	1.003676
30/04/2024	19:57:21.222993	-0.007004	0.014273	1.003141
30/04/2024	19:57:21.230970	-0.006672	0.014164	1.003820
30/04/2024	19:57:21.238947	-0.006738	0.014152	1.003590
30/04/2024	19:57:21.246924	-0.007000	0.014301	1.003383
30/04/2024	19:57:21.254901	-0.006687	0.014219	1.003449
30/04/2024	19:57:21.262878	-0.006777	0.014203	1.003480
30/04/2024	19:57:21.270855	-0.006910	0.014156	1.003004
30/04/2024	19:57:21.278832	-0.007023	0.014273	1.003633
30/04/2024	19:57:21.286809	-0.007066	0.014352	1.003469
30/04/2024	19:57:21.294786	-0.006969	0.014102	1.003480
30/04/2024	19:57:21.302763	-0.006738	0.014125	1.003324
30/04/2024	19:57:21.310740	-0.006891	0.014250	1.003859
30/04/2024	19:57:21.318717	-0.006766	0.014223	1.003836
30/04/2024	19:57:21.326694	-0.006980	0.014105	1.003668
30/04/2024	19:57:21.334671	-0.007008	0.014059	1.003664
30/04/2024	19:57:21.342648	-0.007055	0.014211	1.003336
30/04/2024	19:57:21.350625	-0.006742	0.014285	1.003379
30/04/2024	19:57:21.358602	-0.006762	0.014168	1.003578
30/04/2024	19:57:21.366579	-0.006680	0.014246	1.003551
30/04/2024	19:57:21.374556	-0.006855	0.014180	1.003664
30/04/2024	19:57:21.382533	-0.006996	0.013992	1.003730
30/04/2024	19:57:21.390510	-0.006867	0.014164	1.003309
30/04/2024	19:57:21.398487	-0.006945	0.014086	1.003105
30/04/2024	19:57:21.406464	-0.006785	0.013953	1.003383
30/04/2024	19:57:21.414441	-0.006840	0.014121	1.003672
30/04/2024	19:57:21.422418	-0.006945	0.014234	1.003699
30/04/2024	19:57:21.430395	-0.006844	0.014223	1.003578
30/04/2024	19:57:21.438372	-0.006871	0.014066	1.003313
30/04/2024	19:57:21.446349	-0.006789	0.014145	1.003359
30/04/2024	19:57:21.454326	-0.006961	0.014043	1.003551
30/04/2024	19:57:21.462303	-0.006902	0.014242	1.003250
30/04/2024	19:57:21.470280	-0.006805	0.014145	1.003457
30/04/2024	19:57:21.478257	-0.006895	0.014078	1.003789
30/04/2024	19:57:21.486234	-0.006848	0.014176	1.003453
30/04/2024	19:57:21.494211	-0.006770	0.014199	1.003582
30/04/2024	19:57:21.502188	-0.006859	0.014133	1.003582
30/04/2024	19:57:21.510165	-0.006902	0.014309	1.003590
30/04/2024	19:57:21.518142	-0.006824	0.014070	1.003336
30/04/2024	19:57:21.526110	-0.006777	0.014172	1.003723
30/04/2024	19:57:21.534087	-0.006961	0.014363	1.003195
30/04/2024	19:57:21.542064	-0.007039	0.014254	1.003320
30/04/2024	19:57:21.550041	-0.006977	0.014063	1.003633
30/04/2024	19:57:21.558018	-0.006934	0.014277	1.003715
30/04/2024	19:57:21.565995	-0.006828	0.014297	1.003445
30/04/2024	19:57:21.573972	-0.006891	0.014145	1.003773
30/04/2024	19:57:21.581949	-0.006980	0.014270	1.003340
30/04/2024	19:57:21.589926	-0.007074	0.014320	1.003434
30/04/2024	19:57:21.597903	-0.006977	0.014246	1.002883
30/04/2024	19:57:21.605880	-0.006867	0.014273	1.003465
30/04/2024	19:57:21.613857	-0.007031	0.014277	1.003414
30/04/2024	19:57:21.621834	-0.006980	0.014074	1.003965
30/04/2024	19:57:21.629811	-0.006781	0.014262	1.003273
30/04/2024	19:57:21.637788	-0.006922	0.013977	1.003480
30/04/2024	19:57:21.645765	-0.006781	0.014145	1.003148
30/04/2024	19:57:21.653742	-0.006812	0.014242	1.003414
30/04/2024	19:57:21.661719	-0.006922	0.014293	1.003613
30/04/2024	19:57:21.669696	-0.006961	0.014281	1.003945
30/04/2024	19:57:21.677673	-0.006816	0.014434	1.003344
30/04/2024	19:57:21.685650	-0.006887	0.014203	1.003809
30/04/2024	19:57:21.693627	-0.006801	0.014027	1.003680
30/04/2024	19:57:21.701604	-0.006922	0.014145	1.003645
30/04/2024	19:57:21.709581	-0.006676	0.014129	1.003164
30/04/2024	19:57:21.717558	-0.006680	0.014086	1.004020
30/04/2024	19:57:21.725535	-0.006895	0.014160	1.003555
30/04/2024	19:57:21.733512	-0.006848	0.014172	1.003359
30/04/2024	19:57:21.741489	-0.006715	0.014066	1.003270
30/04/2024	19:57:21.749466	-0.006824	0.013996	1.003613
30/04/2024	19:57:21.757443	-0.006629	0.014074	1.003543
30/04/2024	19:57:21.765420	-0.006723	0.014125	1.004086
30/04/2024	19:57:21.773397	-0.006680	0.014180	1.003344
30/04/2024	19:57:21.781374	-0.006707	0.014105	1.003641
30/04/2024	19:57:21.789351	-0.006887	0.014184	1.003531
30/04/2024	19:57:21.797328	-0.007086	0.013984	1.003793
30/04/2024	19:57:21.805305	-0.006887	0.014109	1.002961
30/04/2024	19:57:21.813282	-0.006828	0.014137	1.003715
30/04/2024	19:57:21.821259	-0.006914	0.014297	1.003355
30/04/2024	19:57:21.829236	-0.006934	0.014203	1.003801
30/04/2024	19:57:21.837213	-0.006824	0.014160	1.003598
30/04/2024	19:57:21.845190	-0.007059	0.014090	1.003812
30/04/2024	19:57:21.853167	-0.007004	0.014090	1.003176
30/04/2024	19:57:21.861144	-0.006906	0.013934	1.003473
30/04/2024	19:57:21.869121	-0.006887	0.014113	1.003102
30/04/2024	19:57:21.877098	-0.006938	0.014082	1.003293
30/04/2024	19:57:21.885075	-0.007039	0.014211	1.003406
30/04/2024	19:57:21.893052	-0.007109	0.014254	1.003875
30/04/2024	19:57:21.901029	-0.006883	0.014277	1.003547
30/04/2024	19:57:21.909006	-0.006727	0.014129	1.003750
30/04/2024	19:57:21.916983	-0.006914	0.014109	1.003199
30/04/2024	19:57:21.924960	-0.006805	0.014020	1.003605
30/04/2024	19:57:21.932937	-0.006895	0.014086	1.003355
30/04/2024	19:57:21.940914	-0.006895	0.014180	1.003578
30/04/2024	19:57:21.948891	-0.006957	0.014301	1.003230
30/04/2024	19:57:21.956868	-0.007016	0.014355	1.003418
30/04/2024	19:57:21.964845	-0.007000	0.014113	1.003324
30/04/2024	19:57:21.972822	-0.006969	0.014105	1.003227
30/04/2024	19:57:21.980799	-0.006910	0.014207	1.003477
30/04/2024	19:57:21.988776	-0.006867	0.014195	1.003672
30/04/2024	19:57:21.996753	-0.006656	0.014203	1.003164
30/04/2024	19:57:22.004730	-0.006941	0.014102	1.003504
30/04/2024	19:57:22.012707	-0.006965	0.014172	1.003484
30/04/2024	19:57:22.020684	-0.006844	0.014121	1.003219
30/04/2024	19:57:22.028661	-0.006914	0.014113	1.003477
30/04/2024	19:57:22.036638	-0.006891	0.014191	1.003707
30/04/2024	19:57:22.044615	-0.006699	0.014305	1.003719
30/04/2024	19:57:22.052592	-0.006777	0.014219	1.003379
30/04/2024	19:57:22.060569	-0.006961	0.014203	1.003707
30/04/2024	19:57:22.068546	-0.007121	0.014047	1.003508
30/04/2024	19:57:22.076523	-0.006805	0.014020	1.003180
30/04/2024	19:57:22.084500	-0.006723	0.013996	1.003344
30/04/2024	19:57:22.092477	-0.006875	0.014320	1.003609
30/04/2024	19:57:22.100454	-0.006707	0.014137	1.003660
30/04/2024	19:57:22.108431	-0.006930	0.014094	1.003727
30/04/2024	19:57:22.116408	-0.006844	0.014176	1.003289
30/04/2024	19:57:22.124385	-0.006996	0.014133	1.003664
30/04/2024	19:57:22.132362	-0.006859	0.014086	1.003352
30/04/2024	19:57:22.140339	-0.006832	0.014066	1.003555
30/04/2024	19:57:22.148316	-0.006871	0.014137	1.003187
30/04/2024	19:57:22.156293	-0.006797	0.014148	1.003676
30/04/2024	19:57:22.164270	-0.006727	0.014160	1.003285
30/04/2024	19:57:22.172247	-0.006883	0.014141	1.003641
30/04/2024	19:57:22.180224	-0.007059	0.014063	1.003348
30/04/2024	19:57:22.188201	-0.007051	0.014277	1.003730
30/04/2024	19:57:22.196178	-0.006789	0.014191	1.003316
30/04/2024	19:57:22.204155	-0.006875	0.014309	1.003812
30/04/2024	19:57:22.212132	-0.006875	0.014320	1.003293
30/04/2024	19:57:22.220109	-0.006746	0.014203	1.003727
30/04/2024	19:57:22.228086	-0.006898	0.014035	1.003395
30/04/2024	19:57:22.236063	-0.006980	0.014063	1.003660
30/04/2024	19:57:22.244040	-0.006953	0.014195	1.003199
30/04/2024	19:57:22.252017	-0.006910	0.014141	1.003559
30/04/2024	19:57:22.259994	-0.006906	0.014180	1.003113
30/04/2024	19:57:22.267971	-0.006824	0.014234	1.003762
30/04/2024	19:57:22.275948	-0.006879	0.014152	1.003418
30/04/2024	19:57:22.283925	-0.006914	0.013984	1.003543
30/04/2024	19:57:22.291902	-0.007027	0.014051	1.003242
30/04/2024	19:57:22.299879	-0.006910	0.014313	1.003488
30/04/2024	19:57:22.307856	-0.006789	0.014246	1.003180
30/04/2024	19:57:22.315833	-0.006844	0.014145	1.003473
30/04/2024	19:57:22.323810	-0.006738	0.014273	1.003352
30/04/2024	19:57:22.331787	-0.006828	0.014094	1.003375
30/04/2024	19:57:22.339764	-0.006879	0.013945	1.003125
30/04/2024	19:57:22.347741	-0.006754	0.013969	1.003949
30/04/2024	19:57:22.355718	-0.006918	0.014195	1.003430
30/04/2024	19:57:22.363695	-0.006938	0.014309	1.003492
30/04/2024	19:57:22.371672	-0.006719	0.013984	1.003363
30/04/2024	19:57:22.379649	-0.006898	0.014141	1.003531
30/04/2024	19:57:22.387626	-0.006797	0.014145	1.003039
30/04/2024	19:57:22.395603	-0.006773	0.014102	1.003359
30/04/2024	19:57:22.403580	-0.006855	0.014156	1.003117
30/04/2024	19:57:22.411557	-0.006938	0.014074	1.003684
30/04/2024	19:57:22.419534	-0.006812	0.014254	1.003187
30/04/2024	19:57:22.427511	-0.006793	0.014117	1.003254
30/04/2024	19:57:22.435488	-0.006828	0.014129	1.003148
30/04/2024	19:57:22.443465	-0.006785	0.014203	1.003566
30/04/2024	19:57:22.451442	-0.006961	0.014270	1.003520
30/04/2024	19:57:22.459419	-0.006965	0.014051	1.003812
30/04/2024	19:57:22.467396	-0.006914	0.014156	1.003484
30/04/2024	19:57:22.475373	-0.006879	0.014000	1.003590
30/04/2024	19:57:22.483350	-0.006754	0.014043	1.003289
30/04/2024	19:57:22.491327	-0.006883	0.014031	1.003645
30/04/2024	19:57:22.499304	-0.006871	0.014086	1.003437
30/04/2024	19:57:22.507281	-0.006941	0.014160	1.003652
30/04/2024	19:57:22.515258	-0.006844	0.014133	1.003473
